#FORMAT      : EMSA/MAS Spectral Data File
#VERSION     : 1.0
#DATE        : 
#TIME        : 
#OWNER       : 
#NPOINTS     : 2048
#NCOLUMNS    : 1
#DATATYPE    : Y
#SIGNALTYPE  : EELS
#XPERCHAN    : 1.0
#OFFSET      : -0.0
#XLABEL      : x
#XUNITS      : 
#COMMENT     : File created by HyperSpy version 1.3
#TITLE       : sum25_GaNseries1 1024 channels extrapolated
#SPECTRUM    : Spectral Data Starts Here
0.000000, 
45.909500, 
50.601200, 
45.007800, 
53.598400, 
57.743500, 
57.736900, 
62.936300, 
65.547800, 
62.478700, 
71.741700, 
77.796300, 
82.922700, 
87.907400, 
89.423800, 
95.765500, 
99.610700, 
98.814500, 
97.419400, 
109.674000, 
112.534000, 
122.476000, 
140.736000, 
140.446000, 
148.658000, 
157.535000, 
160.875000, 
178.241000, 
183.677000, 
202.655000, 
213.746000, 
216.105000, 
233.754000, 
249.769000, 
263.207000, 
294.599000, 
318.016000, 
351.872000, 
385.083000, 
422.127000, 
451.021000, 
504.169000, 
560.012000, 
621.949000, 
685.806000, 
769.355000, 
859.128000, 
983.973000, 
1127.310000, 
1308.870000, 
1510.450000, 
1757.300000, 
2075.770000, 
2462.690000, 
2915.380000, 
3475.430000, 
4178.760000, 
5005.040000, 
6031.010000, 
7277.670000, 
8770.560000, 
10537.000000, 
12547.600000, 
14947.900000, 
17744.200000, 
20813.400000, 
24186.100000, 
27803.900000, 
31555.800000, 
35378.900000, 
38923.700000, 
42041.600000, 
44418.900000, 
46084.800000, 
46807.800000, 
46533.100000, 
45157.400000, 
42841.300000, 
39622.500000, 
35828.800000, 
31632.700000, 
27236.700000, 
22996.600000, 
19050.100000, 
15509.300000, 
12366.800000, 
9824.500000, 
7775.910000, 
6131.460000, 
4862.910000, 
3894.580000, 
3150.360000, 
2576.450000, 
2138.110000, 
1809.750000, 
1525.800000, 
1322.100000, 
1162.130000, 
1032.900000, 
915.614000, 
824.276000, 
750.446000, 
673.293000, 
616.236000, 
573.217000, 
514.030000, 
471.227000, 
441.297000, 
420.147000, 
384.242000, 
354.784000, 
333.879000, 
316.913000, 
301.670000, 
280.627000, 
268.514000, 
262.102000, 
241.969000, 
240.650000, 
221.000000, 
223.838000, 
219.498000, 
196.216000, 
187.561000, 
180.299000, 
181.807000, 
172.872000, 
156.608000, 
158.291000, 
160.908000, 
155.940000, 
142.069000, 
149.197000, 
143.184000, 
130.800000, 
140.870000, 
144.394000, 
134.066000, 
123.719000, 
132.517000, 
130.315000, 
140.564000, 
121.023000, 
137.444000, 
133.184000, 
127.914000, 
128.838000, 
126.947000, 
130.803000, 
116.007000, 
119.087000, 
125.236000, 
124.250000, 
114.930000, 
120.501000, 
119.175000, 
107.776000, 
118.274000, 
123.242000, 
114.802000, 
107.370000, 
102.191000, 
117.355000, 
104.742000, 
117.619000, 
120.206000, 
100.956000, 
113.193000, 
110.395000, 
114.441000, 
112.735000, 
108.096000, 
111.364000, 
105.270000, 
106.079000, 
109.078000, 
102.192000, 
104.829000, 
101.709000, 
105.777000, 
105.790000, 
101.480000, 
109.748000, 
109.037000, 
110.462000, 
99.023200, 
107.278000, 
97.608600, 
100.401000, 
103.203000, 
106.741000, 
105.729000, 
101.674000, 
105.084000, 
113.803000, 
98.568300, 
109.088000, 
110.514000, 
102.845000, 
113.492000, 
109.612000, 
115.687000, 
113.528000, 
103.145000, 
117.761000, 
105.588000, 
116.574000, 
119.917000, 
111.786000, 
117.549000, 
115.223000, 
127.210000, 
125.435000, 
117.427000, 
124.486000, 
120.194000, 
133.668000, 
127.160000, 
135.087000, 
126.447000, 
125.506000, 
131.605000, 
137.200000, 
142.753000, 
130.320000, 
139.299000, 
144.086000, 
141.609000, 
140.737000, 
136.436000, 
141.711000, 
138.872000, 
134.664000, 
145.186000, 
133.294000, 
144.240000, 
139.965000, 
155.357000, 
138.333000, 
136.288000, 
141.574000, 
145.558000, 
143.694000, 
143.428000, 
136.061000, 
147.152000, 
157.151000, 
143.084000, 
142.904000, 
153.312000, 
144.018000, 
149.221000, 
151.928000, 
152.969000, 
156.708000, 
151.300000, 
142.374000, 
152.263000, 
154.392000, 
148.021000, 
155.559000, 
154.166000, 
152.278000, 
156.673000, 
157.351000, 
152.987000, 
159.091000, 
152.158000, 
150.470000, 
155.001000, 
158.145000, 
161.295000, 
159.991000, 
162.177000, 
156.272000, 
158.624000, 
149.676000, 
160.003000, 
159.167000, 
155.383000, 
152.837000, 
159.600000, 
159.550000, 
153.880000, 
157.647000, 
151.049000, 
159.227000, 
158.959000, 
162.885000, 
161.381000, 
156.129000, 
155.393000, 
156.012000, 
162.458000, 
155.924000, 
161.492000, 
163.343000, 
163.329000, 
162.452000, 
168.021000, 
161.127000, 
164.459000, 
161.420000, 
165.771000, 
169.324000, 
165.701000, 
168.578000, 
170.937000, 
173.556000, 
168.635000, 
171.206000, 
174.925000, 
169.178000, 
174.058000, 
165.479000, 
169.186000, 
167.799000, 
176.882000, 
178.164000, 
181.502000, 
177.413000, 
176.379000, 
183.863000, 
182.576000, 
174.846000, 
187.510000, 
174.167000, 
177.565000, 
187.464000, 
188.684000, 
186.803000, 
188.767000, 
189.808000, 
187.745000, 
194.582000, 
191.706000, 
196.620000, 
193.187000, 
204.155000, 
218.889000, 
203.633000, 
209.526000, 
211.345000, 
203.834000, 
215.075000, 
223.949000, 
214.878000, 
219.424000, 
224.575000, 
213.216000, 
225.756000, 
230.877000, 
235.624000, 
234.416000, 
241.978000, 
247.090000, 
244.021000, 
242.263000, 
258.459000, 
245.327000, 
249.696000, 
243.585000, 
256.002000, 
257.756000, 
266.446000, 
270.043000, 
256.728000, 
269.661000, 
273.109000, 
282.492000, 
276.589000, 
273.272000, 
276.833000, 
290.170000, 
277.571000, 
278.316000, 
288.209000, 
287.848000, 
292.500000, 
295.784000, 
296.417000, 
300.877000, 
304.676000, 
305.724000, 
302.199000, 
302.944000, 
317.735000, 
319.483000, 
317.796000, 
319.654000, 
315.117000, 
319.447000, 
319.615000, 
326.983000, 
328.807000, 
320.867000, 
330.015000, 
327.666000, 
328.424000, 
335.399000, 
322.549000, 
340.946000, 
345.217000, 
353.169000, 
350.516000, 
359.143000, 
357.110000, 
361.468000, 
361.082000, 
365.533000, 
369.852000, 
364.762000, 
377.541000, 
377.797000, 
383.647000, 
396.452000, 
399.177000, 
397.917000, 
403.208000, 
408.026000, 
405.214000, 
415.772000, 
409.182000, 
422.478000, 
419.598000, 
424.967000, 
433.594000, 
437.095000, 
440.353000, 
437.276000, 
443.975000, 
449.368000, 
448.362000, 
445.701000, 
449.464000, 
454.883000, 
456.446000, 
464.431000, 
467.231000, 
476.751000, 
467.278000, 
480.997000, 
477.742000, 
472.452000, 
480.491000, 
485.708000, 
483.400000, 
482.501000, 
500.225000, 
493.728000, 
490.868000, 
496.656000, 
499.143000, 
505.662000, 
501.163000, 
498.890000, 
503.455000, 
504.812000, 
505.369000, 
503.948000, 
502.551000, 
506.402000, 
507.080000, 
501.906000, 
502.151000, 
497.711000, 
491.530000, 
497.440000, 
480.049000, 
474.906000, 
463.200000, 
473.372000, 
453.982000, 
451.717000, 
445.193000, 
451.344000, 
453.098000, 
439.041000, 
435.890000, 
420.336000, 
418.055000, 
419.032000, 
415.712000, 
412.028000, 
392.878000, 
388.308000, 
390.886000, 
386.032000, 
379.991000, 
381.473000, 
387.129000, 
371.352000, 
357.437000, 
353.535000, 
355.422000, 
344.049000, 
349.583000, 
344.578000, 
341.652000, 
344.818000, 
339.282000, 
339.568000, 
330.945000, 
326.061000, 
330.434000, 
320.065000, 
316.528000, 
328.596000, 
321.296000, 
308.100000, 
316.050000, 
306.111000, 
313.694000, 
308.890000, 
312.823000, 
304.736000, 
295.239000, 
303.912000, 
311.361000, 
312.321000, 
317.798000, 
318.193000, 
311.376000, 
321.697000, 
330.648000, 
319.027000, 
325.056000, 
324.988000, 
329.939000, 
325.909000, 
328.071000, 
332.776000, 
334.987000, 
340.512000, 
339.055000, 
343.866000, 
332.895000, 
333.409000, 
341.071000, 
340.992000, 
329.269000, 
341.667000, 
335.515000, 
342.930000, 
333.413000, 
329.850000, 
341.046000, 
325.284000, 
334.802000, 
325.372000, 
327.374000, 
317.625000, 
331.617000, 
327.288000, 
323.659000, 
322.371000, 
311.264000, 
311.768000, 
313.652000, 
314.346000, 
311.528000, 
301.765000, 
301.237000, 
300.823000, 
310.425000, 
294.247000, 
287.259000, 
296.597000, 
283.439000, 
285.708000, 
281.691000, 
287.501000, 
284.916000, 
274.672000, 
274.744000, 
285.097000, 
276.596000, 
265.373000, 
270.581000, 
269.701000, 
266.089000, 
268.884000, 
269.120000, 
260.290000, 
258.769000, 
260.665000, 
261.879000, 
258.351000, 
253.783000, 
262.721000, 
258.911000, 
260.731000, 
260.571000, 
265.605000, 
257.706000, 
260.149000, 
257.040000, 
256.979000, 
261.079000, 
251.059000, 
257.042000, 
249.675000, 
259.588000, 
261.045000, 
254.185000, 
252.845000, 
250.699000, 
245.436000, 
255.516000, 
251.580000, 
251.020000, 
247.562000, 
250.540000, 
245.976000, 
245.478000, 
248.377000, 
251.539000, 
245.289000, 
235.567000, 
235.757000, 
247.376000, 
248.048000, 
243.574000, 
253.314000, 
239.406000, 
238.545000, 
244.024000, 
237.775000, 
241.259000, 
244.739000, 
239.978000, 
231.039000, 
240.902000, 
236.237000, 
245.041000, 
243.977000, 
240.773000, 
245.814000, 
241.265000, 
248.780000, 
248.269000, 
245.773000, 
246.328000, 
241.802000, 
248.127000, 
234.731000, 
250.326000, 
251.921000, 
245.622000, 
256.985000, 
253.861000, 
243.122000, 
246.348000, 
249.090000, 
243.444000, 
244.898000, 
243.643000, 
238.685000, 
237.205000, 
230.587000, 
238.326000, 
236.332000, 
236.678000, 
242.923000, 
232.271000, 
230.839000, 
226.008000, 
225.572000, 
236.552000, 
234.617000, 
230.574000, 
218.217000, 
216.800000, 
220.110000, 
224.370000, 
223.156000, 
228.505000, 
218.849000, 
221.612000, 
214.732000, 
215.531000, 
209.879000, 
215.660000, 
208.462000, 
216.383000, 
213.463000, 
211.215000, 
210.995000, 
208.466000, 
210.596000, 
214.746000, 
203.778000, 
216.997000, 
206.381000, 
211.250000, 
207.455000, 
210.772000, 
211.955000, 
203.291000, 
209.116000, 
201.828000, 
204.231000, 
192.698000, 
201.493000, 
197.176000, 
204.162000, 
201.972000, 
191.137000, 
195.466000, 
197.822000, 
204.180000, 
197.529000, 
196.114000, 
197.291000, 
188.880000, 
193.404000, 
199.168000, 
203.649000, 
187.510000, 
191.225000, 
196.389000, 
188.855000, 
191.574000, 
190.032000, 
187.741000, 
195.696000, 
187.757000, 
184.737000, 
178.223000, 
180.195000, 
183.022000, 
185.945000, 
179.478000, 
175.374000, 
179.598000, 
184.121000, 
182.893000, 
186.073000, 
177.098000, 
173.408000, 
172.812000, 
175.535000, 
168.206000, 
181.883000, 
176.231000, 
171.463000, 
180.944000, 
172.578000, 
171.099000, 
163.822000, 
168.030000, 
172.689000, 
167.094000, 
167.379000, 
170.042000, 
165.789000, 
167.082000, 
160.395000, 
162.046000, 
166.213000, 
165.136000, 
159.969000, 
164.071000, 
152.737000, 
160.977000, 
160.347000, 
153.011000, 
166.440000, 
154.145000, 
164.618000, 
157.310000, 
150.565000, 
151.874000, 
157.061000, 
153.140000, 
157.312000, 
155.615000, 
162.644000, 
154.833000, 
151.407000, 
144.318000, 
150.230000, 
156.184000, 
150.559000, 
162.706000, 
158.035000, 
151.198000, 
153.941000, 
146.873000, 
150.181000, 
152.132000, 
146.390000, 
153.563000, 
136.772000, 
139.835000, 
155.086000, 
144.120000, 
146.821000, 
142.329000, 
139.247000, 
152.484000, 
151.088000, 
142.745000, 
151.095000, 
149.829000, 
142.916000, 
144.961000, 
150.399000, 
150.730000, 
139.573000, 
150.924000, 
139.736000, 
145.546000, 
145.366000, 
143.277000, 
135.368000, 
149.024000, 
148.762000, 
141.114000, 
136.779000, 
138.105000, 
149.907000, 
145.557000, 
151.951000, 
143.062000, 
143.206000, 
135.907000, 
147.174000, 
145.524000, 
135.710000, 
140.286000, 
135.504000, 
137.109000, 
144.121000, 
133.174000, 
140.172000, 
139.471000, 
133.914000, 
136.323000, 
144.203000, 
142.211000, 
139.845000, 
134.403000, 
136.819000, 
135.509000, 
136.495000, 
129.678000, 
135.660000, 
135.297000, 
135.268000, 
123.288000, 
136.985000, 
140.608000, 
133.215000, 
135.616000, 
149.286000, 
142.044000, 
130.337000, 
136.188000, 
135.576000, 
141.317000, 
142.006000, 
129.983000, 
134.947000, 
132.745000, 
138.982000, 
132.359000, 
134.298000, 
133.058000, 
128.191000, 
143.942000, 
126.072000, 
128.209000, 
136.418000, 
136.266000, 
131.493000, 
141.600000, 
122.399000, 
136.917000, 
127.996000, 
132.303000, 
132.654000, 
126.939000, 
139.221000, 
124.179000, 
126.142000, 
124.075000, 
130.446000, 
131.209000, 
130.994000, 
125.155000, 
126.183000, 
123.517000, 
123.800000, 
128.357000, 
125.404000, 
124.964000, 
124.279000, 
135.089000, 
125.413000, 
133.776000, 
121.837000, 
127.745000, 
130.653000, 
132.973000, 
122.202000, 
123.465000, 
129.174000, 
122.873000, 
126.978000, 
127.772000, 
120.609000, 
125.870000, 
128.342000, 
129.951000, 
127.195000, 
118.985000, 
119.757000, 
124.705000, 
128.233000, 
129.168000, 
129.361000, 
125.243000, 
127.494000, 
132.225000, 
128.691000, 
126.538000, 
128.223000, 
132.776000, 
124.425000, 
134.139000, 
135.705000, 
118.848000, 
128.223000, 
119.838000, 
125.459000, 
120.154000, 
127.062000, 
130.242000, 
128.575000, 
125.695000, 
119.917000, 
129.629000, 
127.361000, 
127.719000, 
127.226000, 
119.403000, 
116.618000, 
123.851000, 
131.322000, 
123.398000, 
125.026000, 
133.301000, 
128.910000, 
123.895000, 
126.285000, 
120.059000, 
118.677000, 
124.666000, 
133.079000, 
120.897000, 
114.068000, 
127.213000, 
120.537000, 
123.002000, 
119.178000, 
126.118000, 
131.104000, 
129.340000, 
132.188000, 
115.537000, 
119.308000, 
119.468000, 
127.327000, 
118.239000, 
118.325000, 
123.465000, 
123.584000, 
117.269000, 
121.842000, 
122.350000, 
123.607000, 
120.338000, 
127.752000, 
121.554000, 
111.634000, 
123.921000, 
117.219000, 
111.882000, 
119.737000, 
118.099000, 
117.048000, 
119.019000, 
122.458000, 
118.579000, 
128.917000, 
110.336000, 
121.805000, 
117.050000, 
114.631000, 
118.984000, 
107.793000, 
117.519000, 
117.500000, 
123.024000, 
116.345000, 
117.474000, 
111.358000, 
124.697000, 
129.757000, 
123.405000, 
118.803000, 
116.081000, 
114.946000, 
125.057000, 
114.887000, 
113.535000, 
118.421000, 
112.590000, 
110.946000, 
116.898000, 
115.052000, 
118.315000, 
111.393000, 
112.826699, 
112.376731, 
111.928994, 
111.483474, 
111.040158, 
110.599034, 
110.160088, 
109.723308, 
109.288680, 
108.856193, 
108.425832, 
107.997587, 
107.571445, 
107.147392, 
106.725418, 
106.305509, 
105.887654, 
105.471841, 
105.058057, 
104.646292, 
104.236532, 
103.828767, 
103.422985, 
103.019174, 
102.617323, 
102.217421, 
101.819456, 
101.423417, 
101.029293, 
100.637073, 
100.246745, 
99.858300, 
99.471725, 
99.087011, 
98.704146, 
98.323121, 
97.943923, 
97.566544, 
97.190972, 
96.817198, 
96.445210, 
96.074999, 
95.706554, 
95.339866, 
94.974925, 
94.611720, 
94.250241, 
93.890479, 
93.532425, 
93.176068, 
92.821398, 
92.468407, 
92.117085, 
91.767422, 
91.419408, 
91.073036, 
90.728295, 
90.385176, 
90.043670, 
89.703768, 
89.365461, 
89.028740, 
88.693597, 
88.360021, 
88.028006, 
87.697541, 
87.368618, 
87.041229, 
86.715365, 
86.391018, 
86.068179, 
85.746839, 
85.426991, 
85.108626, 
84.791736, 
84.476313, 
84.162348, 
83.849834, 
83.538763, 
83.229126, 
82.920916, 
82.614125, 
82.308744, 
82.004768, 
81.702186, 
81.400993, 
81.101180, 
80.802739, 
80.505664, 
80.209947, 
79.915580, 
79.622556, 
79.330867, 
79.040507, 
78.751469, 
78.463744, 
78.177326, 
77.892208, 
77.608382, 
77.325842, 
77.044581, 
76.764591, 
76.485867, 
76.208401, 
75.932186, 
75.657215, 
75.383483, 
75.110981, 
74.839704, 
74.569645, 
74.300798, 
74.033156, 
73.766712, 
73.501460, 
73.237394, 
72.974508, 
72.712794, 
72.452247, 
72.192861, 
71.934630, 
71.677546, 
71.421605, 
71.166800, 
70.913125, 
70.660575, 
70.409142, 
70.158822, 
69.909608, 
69.661494, 
69.414475, 
69.168546, 
68.923699, 
68.679930, 
68.437232, 
68.195601, 
67.955031, 
67.715515, 
67.477049, 
67.239627, 
67.003244, 
66.767893, 
66.533571, 
66.300270, 
66.067987, 
65.836716, 
65.606451, 
65.377187, 
65.148919, 
64.921642, 
64.695350, 
64.470040, 
64.245705, 
64.022340, 
63.799940, 
63.578502, 
63.358018, 
63.138485, 
62.919898, 
62.702252, 
62.485542, 
62.269762, 
62.054910, 
61.840978, 
61.627964, 
61.415862, 
61.204667, 
60.994376, 
60.784982, 
60.576482, 
60.368872, 
60.162146, 
59.956300, 
59.751329, 
59.547230, 
59.343998, 
59.141627, 
58.940115, 
58.739457, 
58.539647, 
58.340683, 
58.142559, 
57.945272, 
57.748817, 
57.553191, 
57.358388, 
57.164404, 
56.971237, 
56.778881, 
56.587332, 
56.396587, 
56.206641, 
56.017490, 
55.829131, 
55.641560, 
55.454771, 
55.268763, 
55.083530, 
54.899068, 
54.715375, 
54.532446, 
54.350277, 
54.168865, 
53.988206, 
53.808296, 
53.629131, 
53.450707, 
53.273022, 
53.096071, 
52.919851, 
52.744358, 
52.569589, 
52.395539, 
52.222206, 
52.049586, 
51.877675, 
51.706470, 
51.535968, 
51.366164, 
51.197056, 
51.028641, 
50.860914, 
50.693872, 
50.527513, 
50.361832, 
50.196827, 
50.032494, 
49.868830, 
49.705831, 
49.543495, 
49.381818, 
49.220796, 
49.060428, 
48.900709, 
48.741637, 
48.583208, 
48.425419, 
48.268268, 
48.111750, 
47.955864, 
47.800605, 
47.645971, 
47.491960, 
47.338567, 
47.185790, 
47.033626, 
46.882072, 
46.731126, 
46.580784, 
46.431043, 
46.281900, 
46.133353, 
45.985399, 
45.838035, 
45.691258, 
45.545065, 
45.399454, 
45.254422, 
45.109965, 
44.966082, 
44.822770, 
44.680025, 
44.537846, 
44.396229, 
44.255172, 
44.114672, 
43.974727, 
43.835334, 
43.696490, 
43.558192, 
43.420440, 
43.283228, 
43.146556, 
43.010420, 
42.874819, 
42.739749, 
42.605208, 
42.471193, 
42.337703, 
42.204734, 
42.072284, 
41.940352, 
41.808933, 
41.678027, 
41.547630, 
41.417741, 
41.288356, 
41.159474, 
41.031092, 
40.903208, 
40.775820, 
40.648924, 
40.522520, 
40.396605, 
40.271176, 
40.146231, 
40.021768, 
39.897785, 
39.774279, 
39.651249, 
39.528692, 
39.406606, 
39.284989, 
39.163838, 
39.043152, 
38.922928, 
38.803165, 
38.683859, 
38.565010, 
38.446615, 
38.328672, 
38.211178, 
38.094133, 
37.977533, 
37.861377, 
37.745663, 
37.630388, 
37.515551, 
37.401150, 
37.287182, 
37.173646, 
37.060541, 
36.947863, 
36.835610, 
36.723782, 
36.612377, 
36.501391, 
36.390823, 
36.280672, 
36.170936, 
36.061612, 
35.952699, 
35.844195, 
35.736098, 
35.628407, 
35.521119, 
35.414233, 
35.307746, 
35.201658, 
35.095966, 
34.990669, 
34.885764, 
34.781251, 
34.677126, 
34.573390, 
34.470039, 
34.367072, 
34.264488, 
34.162284, 
34.060460, 
33.959013, 
33.857941, 
33.757244, 
33.656919, 
33.556964, 
33.457379, 
33.358161, 
33.259309, 
33.160821, 
33.062696, 
32.964932, 
32.867528, 
32.770481, 
32.673790, 
32.577454, 
32.481472, 
32.385841, 
32.290560, 
32.195627, 
32.101042, 
32.006802, 
31.912906, 
31.819352, 
31.726140, 
31.633267, 
31.540732, 
31.448534, 
31.356671, 
31.265141, 
31.173944, 
31.083077, 
30.992540, 
30.902330, 
30.812447, 
30.722890, 
30.633655, 
30.544743, 
30.456152, 
30.367881, 
30.279927, 
30.192290, 
30.104969, 
30.017962, 
29.931267, 
29.844883, 
29.758810, 
29.673045, 
29.587588, 
29.502436, 
29.417590, 
29.333046, 
29.248805, 
29.164865, 
29.081224, 
28.997881, 
28.914836, 
28.832086, 
28.749630, 
28.667468, 
28.585598, 
28.504018, 
28.422728, 
28.341726, 
28.261011, 
28.180582, 
28.100438, 
28.020577, 
27.940998, 
27.861701, 
27.782683, 
27.703943, 
27.625482, 
27.547296, 
27.469386, 
27.391749, 
27.314386, 
27.237294, 
27.160473, 
27.083921, 
27.007637, 
26.931620, 
26.855870, 
26.780385, 
26.705163, 
26.630204, 
26.555506, 
26.481070, 
26.406892, 
26.332973, 
26.259311, 
26.185906, 
26.112755, 
26.039859, 
25.967216, 
25.894824, 
25.822684, 
25.750794, 
25.679152, 
25.607758, 
25.536611, 
25.465710, 
25.395053, 
25.324641, 
25.254471, 
25.184543, 
25.114855, 
25.045408, 
24.976199, 
24.907228, 
24.838494, 
24.769995, 
24.701732, 
24.633702, 
24.565906, 
24.498341, 
24.431007, 
24.363904, 
24.297030, 
24.230384, 
24.163965, 
24.097773, 
24.031806, 
23.966063, 
23.900545, 
23.835249, 
23.770175, 
23.705321, 
23.640688, 
23.576274, 
23.512078, 
23.448100, 
23.384338, 
23.320791, 
23.257459, 
23.194342, 
23.131437, 
23.068744, 
23.006262, 
22.943991, 
22.881930, 
22.820077, 
22.758432, 
22.696995, 
22.635763, 
22.574737, 
22.513915, 
22.453298, 
22.392883, 
22.332670, 
22.272659, 
22.212848, 
22.153236, 
22.093824, 
22.034610, 
21.975593, 
21.916773, 
21.858149, 
21.799719, 
21.741484, 
21.683442, 
21.625593, 
21.567936, 
21.510470, 
21.453194, 
21.396108, 
21.339211, 
21.282502, 
21.225980, 
21.169645, 
21.113496, 
21.057532, 
21.001752, 
20.946157, 
20.890744, 
20.835514, 
20.780465, 
20.725597, 
20.670909, 
20.616400, 
20.562071, 
20.507919, 
20.453945, 
20.400147, 
20.346525, 
20.293079, 
20.239807, 
20.186709, 
20.133784, 
20.081031, 
20.028451, 
19.976042, 
19.923803, 
19.871734, 
19.819835, 
19.768104, 
19.716540, 
19.665144, 
19.613915, 
19.562852, 
19.511954, 
19.461220, 
19.410651, 
19.360245, 
19.310002, 
19.259921, 
19.210001, 
19.160242, 
19.110644, 
19.061205, 
19.011925, 
18.962804, 
18.913841, 
18.865034, 
18.816385, 
18.767891, 
18.719553, 
18.671369, 
18.623340, 
18.575464, 
18.527742, 
18.480172, 
18.432753, 
18.385486, 
18.338370, 
18.291404, 
18.244588, 
18.197920, 
18.151401, 
18.105030, 
18.058806, 
18.012729, 
17.966798, 
17.921013, 
17.875372, 
17.829877, 
17.784525, 
17.739317, 
17.694251, 
17.649328, 
17.604547, 
17.559907, 
17.515408, 
17.471049, 
17.426830, 
17.382750, 
17.338808, 
17.295005, 
17.251339, 
17.207811, 
17.164419, 
17.121163, 
17.078043, 
17.035057, 
16.992206, 
16.949490, 
16.906906, 
16.864456, 
16.822138, 
16.779953, 
16.737899, 
16.695976, 
16.654183, 
16.612521, 
16.570988, 
16.529585, 
16.488310, 
16.447163, 
16.406144, 
16.365252, 
16.324486, 
16.283847, 
16.243334, 
16.202947, 
16.162684, 
16.122545, 
16.082531, 
16.042640, 
16.002872, 
15.963226, 
15.923703, 
15.884301, 
15.845021, 
15.805861, 
15.766822, 
15.727903, 
15.689103, 
15.650422, 
15.611860, 
15.573416, 
15.535089, 
15.496880, 
15.458788, 
15.420812, 
15.382952, 
15.345208, 
15.307579, 
15.270065, 
15.232665, 
15.195379, 
15.158206, 
15.121147, 
15.084200, 
15.047365, 
15.010643, 
14.974031, 
14.937531, 
14.901141, 
14.864862, 
14.828693, 
14.792632, 
14.756681, 
14.720839, 
14.685105, 
14.649479, 
14.613960, 
14.578548, 
14.543243, 
14.508045, 
14.472952, 
14.437965, 
14.403083, 
14.368305, 
14.333633, 
14.299064, 
14.264599, 
14.230237, 
14.195978, 
14.161822, 
14.127768, 
14.093816, 
14.059965, 
14.026215, 
13.992566, 
13.959018, 
13.925569, 
13.892220, 
13.858971, 
13.825820, 
13.792768, 
13.759815, 
13.726959, 
13.694200, 
13.661539, 
13.628975, 
13.596508, 
13.564136, 
13.531861, 
13.499680, 
13.467595, 
13.435605, 
13.403710, 
13.371908, 
13.340201, 
13.308586, 
13.277065, 
13.245637, 
13.214302, 
13.183058, 
13.151907, 
13.120847, 
13.089878, 
13.059000, 
13.028212, 
12.997515, 
12.966908, 
12.936391, 
12.905962, 
12.875623, 
12.845373, 
12.815211, 
12.785137, 
12.755150, 
12.725251, 
12.695440, 
12.665715, 
12.636077, 
12.606525, 
12.577058, 
12.547678, 
12.518383, 
12.489173, 
12.460048, 
12.431007, 
12.402050, 
12.373177, 
12.344388, 
12.315682, 
12.287059, 
12.258519, 
12.230061, 
12.201686, 
12.173392, 
12.145180, 
12.117049, 
12.089000, 
12.061031, 
12.033142, 
12.005334, 
11.977605, 
11.949956, 
11.922387, 
11.894897, 
11.867485, 
11.840152, 
11.812897, 
11.785721, 
11.758622, 
11.731600, 
11.704656, 
11.677789, 
11.650998, 
11.624284, 
11.597646, 
11.571084, 
11.544598, 
11.518187, 
11.491851, 
11.465590, 
11.439404, 
11.413292, 
11.387254, 
11.361290, 
11.335400, 
11.309583, 
11.283839, 
11.258168, 
11.232569, 
11.207043, 
11.181590, 
11.156208, 
11.130897, 
11.105658, 
11.080491, 
11.055394, 
11.030368, 
11.005412, 
10.980527, 
10.955711, 
10.930965, 
10.906289, 
10.881682, 
10.857144, 
10.832675, 
10.808275, 
10.783942, 
10.759678, 
10.735482, 
10.711354, 
10.687293, 
10.663299, 
10.639372, 
10.615512, 
10.591718, 
10.567991, 
10.544330, 
10.520735, 
10.497205, 
10.473741, 
10.450342, 
10.427008, 
10.403739, 
10.380535, 
10.357394, 
10.334318, 
10.311306, 
10.288358, 
10.265473, 
10.242652, 
10.219893, 
10.197197, 
10.174565, 
10.151994, 
10.129486, 
10.107040, 
10.084656, 
10.062333, 
10.040072, 
10.017872, 
9.995733, 
9.973655, 
9.951638, 
9.929681, 
9.907784, 
9.885947, 
9.864171, 
9.842454, 
9.820796, 
9.799197, 
9.777658, 
9.756178, 
9.734756, 
9.713393, 
9.692088, 
9.670841, 
9.649652, 
9.628521, 
9.607447, 
9.586431, 
9.565472, 
9.544569, 
9.523724, 
9.502935, 
9.482203, 
9.461527, 
9.440907, 
9.420343, 
9.399834, 
9.379382, 
9.358984, 
9.338642, 
9.318354, 
9.298122, 
9.277944, 
9.257820, 
9.237751, 
9.217736, 
9.197775, 
9.177868, 
9.158014, 
9.138213, 
9.118466, 
9.098772, 
9.079131, 
9.059542, 
9.040006, 
9.020523, 
9.001092, 
8.981712, 
8.962385, 
8.943109, 
8.923885, 
8.904712, 
8.885591, 
8.866521, 
8.847501, 
8.828532, 
8.809614, 
8.790746, 
8.771929, 
8.753161, 
8.734444, 
8.715776, 
8.697158, 
8.678589, 
8.660070, 
8.641600, 
8.623179, 
8.604806, 
8.586482, 
8.568207, 
8.549980, 
8.531802, 
8.513671, 
8.495589, 
8.477554, 
8.459567, 
8.441627, 
8.423734, 
8.405889, 
8.388091, 
8.370339, 
8.352635, 
8.334977, 
8.317365, 
8.299800, 
8.282280, 
8.264807, 
8.247380, 
8.229998, 
8.212662, 
8.195371, 
8.178125, 
8.160925, 
8.143770, 
8.126659, 
8.109593, 
8.092572, 
8.075595, 
8.058663, 
8.041774, 
8.024930, 
8.008129, 
7.991373, 
7.974659, 
7.957990, 
7.941363, 
7.924780, 
7.908240, 
7.891743, 
7.875289, 
7.858877, 
7.842508, 
7.826181, 
7.809897, 
7.793654, 
7.777454, 
7.761295, 
7.745179, 
7.729104, 
7.713070, 
7.697078, 
7.681127, 
7.665217, 
7.649348, 
7.633520, 
7.617733, 
7.601986, 
7.586280, 
7.570614, 
7.554988, 
7.539403, 
7.523857, 
7.508352, 
7.492886, 
7.477459, 
7.462072, 
7.446725, 
7.431417, 
7.416148, 
7.400918, 
7.385727, 
7.370574, 
7.355461, 
7.340385, 
7.325349, 
7.310350, 
7.295390, 
7.280468, 
7.265584, 
7.250737, 
7.235929, 
7.221158, 
7.206424, 
7.191728, 
7.177069, 
7.162447, 
7.147863, 
7.133315, 
7.118804, 
7.104330, 
7.089892, 
7.075491, 
7.061126, 
7.046798, 
7.032506, 
7.018249, 
7.004029, 
6.989845, 
6.975696, 
6.961583, 
6.947505, 
6.933463, 
6.919456, 
6.905484, 
6.891548, 
6.877646, 
6.863779, 
6.849947, 
6.836150, 
6.822387, 
6.808659, 
6.794965, 
6.781305, 
6.767679, 
6.754088, 
6.740530, 
6.727007, 
6.713517, 
6.700060, 
6.686638, 
6.673248, 
6.659892, 
6.646569, 
6.633280, 
6.620023, 
#ENDOFDATA   : End Of Data and File